Folder: pypi-mirror-371/packages/m-eclipses/m_eclipses-0.4.0-py3-none-any.whl/euvst_response/data/throughput

Note: README.md
# PyPI code 371

This repository is part of a project to make all code in PyPI as accessible as possible. For more information 
on the project and to find out how to utilise this data, see the website: https://py-code.org/

This repo contains 28030 packages uploaded to PyPI between 
2025-08-21 11:20 and 2025-08-23 22:35.

The repo is 90% (25472/28030) complete.

Package contents can be found [in the code branch](https://github.com/pypi-data/pypi-mirror-371/tree/code/packages).

A browsable package list for all repositories [all packages here](https://py-code.org/repositories/pypi-mirror-371).

File: throughput_aluminium_oxide_1000_angstrom.dat
 Al2O3 Density=3.97 Thickness=0.1 microns
 Wavelength (nm), Transmission
    16.000      2.75502E-02
    16.024      2.75696E-02
    16.048      2.75880E-02
    16.072      2.76055E-02
    16.096      2.76219E-02
    16.120      2.76374E-02
    16.144      2.76519E-02
    16.168      2.76654E-02
    16.192      2.76780E-02
    16.216      2.76896E-02
    16.240      2.77002E-02
    16.264      2.77099E-02
    16.288      2.77187E-02
    16.312      2.77265E-02
    16.336      2.77333E-02
    16.360      2.77393E-02
    16.384      2.77443E-02
    16.408      2.77484E-02
    16.432      2.77515E-02
    16.456      2.77538E-02
    16.480      2.77551E-02
    16.504      2.77556E-02
    16.528      2.77551E-02
    16.552      2.77538E-02
    16.576      2.77515E-02
    16.600      2.77484E-02
    16.624      2.77444E-02
    16.648      2.77395E-02
    16.672      2.77337E-02
    16.696      2.77271E-02
    16.720      2.77196E-02
    16.744      2.77112E-02
    16.768      2.77020E-02
    16.792      2.76920E-02
    16.816      2.76811E-02
    16.840      2.76694E-02
    16.864      2.76569E-02
    16.888      2.76434E-02
    16.912      2.76293E-02
    16.936      2.76143E-02
    16.960      2.75985E-02
    16.984      2.75819E-02
    17.008      2.75646E-02
    17.032      2.99248E-02
    17.056      7.46141E-02
    17.080      9.54154E-02
    17.104      9.49125E-02
    17.128      9.44118E-02
    17.152      9.39130E-02
    17.176      9.34164E-02
    17.200      9.29217E-02
    17.224      9.24291E-02
    17.248      9.19387E-02
    17.272      9.14503E-02
    17.296      9.09639E-02
    17.320      9.04795E-02
    17.344      8.99972E-02
    17.368      8.95168E-02
    17.392      8.90385E-02
    17.416      8.85623E-02
    17.440      8.80880E-02
    17.464      8.76158E-02
    17.488      8.71455E-02
    17.512      8.66771E-02
    17.536      8.62097E-02
    17.560      8.57443E-02
    17.584      8.52809E-02
    17.608      8.48195E-02
    17.632      8.43600E-02
    17.656      8.39026E-02
    17.680      8.34470E-02
    17.704      8.29935E-02
    17.728      8.25419E-02
    17.752      8.20923E-02
    17.776      8.16446E-02
    17.800      8.11974E-02
    17.824      8.07490E-02
    17.848      8.03026E-02
    17.872      7.98583E-02
    17.896      7.94159E-02
    17.920      7.89753E-02
    17.944      7.85369E-02
    17.968      7.81003E-02
    17.992      7.76656E-02
    18.016      7.72329E-02
    18.040      7.68022E-02
    18.064      7.63734E-02
    18.088      7.59466E-02
    18.112      7.55219E-02
    18.136      7.50991E-02
    18.160      7.46783E-02
    18.184      7.42593E-02
    18.208      7.38422E-02
    18.232      7.34271E-02
    18.256      7.30138E-02
    18.280      7.26024E-02
    18.304      7.21928E-02
    18.328      7.17851E-02
    18.352      7.13793E-02
    18.376      7.09757E-02
    18.400      7.05758E-02
    18.424      7.01777E-02
    18.448      6.97815E-02
    18.472      6.93870E-02
    18.496      6.89943E-02
    18.520      6.86034E-02
    18.544      6.82142E-02
    18.568      6.78270E-02
    18.592      6.74414E-02
    18.616      6.70577E-02
    18.640      6.66757E-02
    18.664      6.62953E-02
    18.688      6.59168E-02
    18.712      6.55401E-02
    18.736      6.51650E-02
    18.760      6.47918E-02
    18.784      6.44202E-02
    18.808      6.40504E-02
    18.832      6.36824E-02
    18.856      6.33160E-02
    18.880      6.29513E-02
    18.904      6.25884E-02
    18.928      6.22271E-02
    18.952      6.18676E-02
    18.976      6.15097E-02
    19.000      6.11535E-02
    19.024      6.07991E-02
    19.048      6.04462E-02
    19.072      6.00951E-02
    19.096      5.97456E-02
    19.120      5.93978E-02
    19.144      5.90517E-02
    19.168      5.87072E-02
    19.192      5.83644E-02
    19.216      5.80232E-02
    19.240      5.76836E-02
    19.264      5.73457E-02
    19.288      5.70089E-02
    19.312      5.66730E-02
    19.336      5.63387E-02
    19.360      5.60061E-02
    19.384      5.56751E-02
    19.408      5.53458E-02
    19.432      5.50180E-02
    19.456      5.46919E-02
    19.480      5.43673E-02
    19.504      5.40444E-02
    19.528      5.37231E-02
    19.552      5.34033E-02
    19.576      5.30852E-02
    19.600      5.27628E-02
    19.624      5.24348E-02
    19.648      5.21084E-02
    19.672      5.17839E-02
    19.696      5.14611E-02
    19.720      5.11400E-02
    19.744      5.08205E-02
    19.768      5.05029E-02
    19.792      5.01869E-02
    19.816      4.98725E-02
    19.840      4.95600E-02
    19.864      4.92490E-02
    19.888      4.89397E-02
    19.912      4.86321E-02
    19.936      4.83262E-02
    19.960      4.80219E-02
    19.984      4.77192E-02
    20.008      4.74181E-02
    20.032      4.71187E-02
    20.056      4.68209E-02
    20.080      4.65248E-02
    20.104      4.62302E-02
    20.128      4.59373E-02
    20.152      4.56460E-02
    20.176      4.53562E-02
    20.200      4.50680E-02
    20.224      4.47815E-02
    20.248      4.44964E-02
    20.272      4.42130E-02
    20.296      4.39312E-02
    20.320      4.36509E-02
    20.344      4.33721E-02
    20.368      4.30949E-02
    20.392      4.28192E-02
    20.416      4.25450E-02
    20.440      4.22723E-02
    20.464      4.20012E-02
    20.488      4.17316E-02
    20.512      4.14634E-02
    20.536      4.11968E-02
    20.560      4.09314E-02
    20.584      4.06667E-02
    20.608      4.04034E-02
    20.632      4.01417E-02
    20.656      3.98814E-02
    20.680      3.96226E-02
    20.704      3.93652E-02
    20.728      3.91093E-02
    20.752      3.88548E-02
    20.776      3.86018E-02
    20.800      3.83502E-02
    20.824      3.81001E-02
    20.848      3.78513E-02
    20.872      3.76039E-02
    20.896      3.73572E-02
    20.920      3.71103E-02
    20.944      3.68648E-02
    20.968      3.66208E-02
    20.992      3.63781E-02
    21.016      3.61368E-02
    21.040      3.58969E-02
    21.064      3.56584E-02
    21.088      3.54213E-02
    21.112      3.51856E-02
    21.136      3.49512E-02
    21.160      3.47182E-02
    21.184      3.44866E-02
    21.208      3.42563E-02
    21.232      3.40273E-02
    21.256      3.37997E-02
    21.280      3.35734E-02
    21.304      3.33485E-02
    21.328      3.31249E-02
    21.352      3.29026E-02
    21.376      3.26816E-02
    21.400      3.24619E-02
    21.424      3.22434E-02
    21.448      3.20263E-02
    21.472      3.18105E-02
    21.496      3.15959E-02
    21.520      3.13826E-02
    21.544      3.11705E-02
    21.568      3.09597E-02
    21.592      3.07502E-02
    21.616      3.05419E-02
    21.640      3.03348E-02
    21.664      3.01290E-02
    21.688      2.99244E-02
    21.712      2.97210E-02
    21.736      2.95189E-02
    21.760      2.93179E-02
    21.784      2.91181E-02
    21.808      2.89196E-02
    21.832      2.87222E-02
    21.856      2.85260E-02
    21.880      2.83310E-02
    21.904      2.81372E-02
    21.928      2.79445E-02
    21.952      2.77530E-02
    21.976      2.75626E-02
    22.000      2.73734E-02

File: throughput_carbon_1000_angstrom.dat
 C Density=2.2 Thickness=0.1 microns
 Wavelength (nm), Transmission
    16.000      0.39770
    16.024      0.39653
    16.048      0.39537
    16.072      0.39420
    16.096      0.39304
    16.120      0.39188
    16.144      0.39072
    16.168      0.38956
    16.192      0.38840
    16.216      0.38725
    16.240      0.38609
    16.264      0.38494
    16.288      0.38379
    16.312      0.38264
    16.336      0.38149
    16.360      0.38035
    16.384      0.37920
    16.408      0.37806
    16.432      0.37692
    16.456      0.37578
    16.480      0.37464
    16.504      0.37350
    16.528      0.37237
    16.552      0.37123
    16.576      0.37010
    16.600      0.36897
    16.624      0.36784
    16.648      0.36671
    16.672      0.36559
    16.696      0.36447
    16.720      0.36334
    16.744      0.36222
    16.768      0.36110
    16.792      0.35999
    16.816      0.35887
    16.840      0.35776
    16.864      0.35664
    16.888      0.35553
    16.912      0.35442
    16.936      0.35332
    16.960      0.35221
    16.984      0.35111
    17.008      0.35001
    17.032      0.34891
    17.056      0.34781
    17.080      0.34671
    17.104      0.34562
    17.128      0.34452
    17.152      0.34343
    17.176      0.34234
    17.200      0.34125
    17.224      0.34017
    17.248      0.33908
    17.272      0.33800
    17.296      0.33692
    17.320      0.33584
    17.344      0.33476
    17.368      0.33369
    17.392      0.33261
    17.416      0.33154
    17.440      0.33047
    17.464      0.32940
    17.488      0.32833
    17.512      0.32727
    17.536      0.32621
    17.560      0.32515
    17.584      0.32409
    17.608      0.32303
    17.632      0.32197
    17.656      0.32092
    17.680      0.31987
    17.704      0.31881
    17.728      0.31777
    17.752      0.31672
    17.776      0.31567
    17.800      0.31463
    17.824      0.31359
    17.848      0.31255
    17.872      0.31152
    17.896      0.31048
    17.920      0.30945
    17.944      0.30842
    17.968      0.30739
    17.992      0.30636
    18.016      0.30533
    18.040      0.30431
    18.064      0.30329
    18.088      0.30227
    18.112      0.30125
    18.136      0.30023
    18.160      0.29922
    18.184      0.29821
    18.208      0.29720
    18.232      0.29619
    18.256      0.29518
    18.280      0.29418
    18.304      0.29317
    18.328      0.29217
    18.352      0.29117
    18.376      0.29018
    18.400      0.28918
    18.424      0.28819
    18.448      0.28720
    18.472      0.28621
    18.496      0.28522
    18.520      0.28424
    18.544      0.28325
    18.568      0.28227
    18.592      0.28129
    18.616      0.28032
    18.640      0.27934
    18.664      0.27837
    18.688      0.27740
    18.712      0.27643
    18.736      0.27546
    18.760      0.27450
    18.784      0.27353
    18.808      0.27257
    18.832      0.27161
    18.856      0.27066
    18.880      0.26970
    18.904      0.26875
    18.928      0.26780
    18.952      0.26685
    18.976      0.26590
    19.000      0.26495
    19.024      0.26401
    19.048      0.26307
    19.072      0.26213
    19.096      0.26119
    19.120      0.26026
    19.144      0.25933
    19.168      0.25839
    19.192      0.25747
    19.216      0.25654
    19.240      0.25561
    19.264      0.25469
    19.288      0.25377
    19.312      0.25285
    19.336      0.25193
    19.360      0.25102
    19.384      0.25011
    19.408      0.24920
    19.432      0.24829
    19.456      0.24738
    19.480      0.24648
    19.504      0.24558
    19.528      0.24468
    19.552      0.24378
    19.576      0.24288
    19.600      0.24199
    19.624      0.24110
    19.648      0.24021
    19.672      0.23932
    19.696      0.23843
    19.720      0.23755
    19.744      0.23667
    19.768      0.23579
    19.792      0.23491
    19.816      0.23404
    19.840      0.23316
    19.864      0.23229
    19.888      0.23142
    19.912      0.23056
    19.936      0.22969
    19.960      0.22883
    19.984      0.22797
    20.008      0.22711
    20.032      0.22625
    20.056      0.22540
    20.080      0.22455
    20.104      0.22370
    20.128      0.22285
    20.152      0.22200
    20.176      0.22116
    20.200      0.22031
    20.224      0.21947
    20.248      0.21874
    20.272      0.21804
    20.296      0.21734
    20.320      0.21663
    20.344      0.21593
    20.368      0.21524
    20.392      0.21454
    20.416      0.21384
    20.440      0.21315
    20.464      0.21246
    20.488      0.21177
    20.512      0.21108
    20.536      0.21039
    20.560      0.20971
    20.584      0.20908
    20.608      0.20845
    20.632      0.20782
    20.656      0.20719
    20.680      0.20657
    20.704      0.20594
    20.728      0.20532
    20.752      0.20469
    20.776      0.20407
    20.800      0.20345
    20.824      0.20283
    20.848      0.20222
    20.872      0.20160
    20.896      0.20099
    20.920      0.20037
    20.944      0.19976
    20.968      0.19915
    20.992      0.19854
    21.016      0.19794
    21.040      0.19733
    21.064      0.19673
    21.088      0.19612
    21.112      0.19552
    21.136      0.19492
    21.160      0.19432
    21.184      0.19372
    21.208      0.19313
    21.232      0.19253
    21.256      0.19194
    21.280      0.19135
    21.304      0.19076
    21.328      0.19017
    21.352      0.18958
    21.376      0.18899
    21.400      0.18841
    21.424      0.18783
    21.448      0.18724
    21.472      0.18666
    21.496      0.18608
    21.520      0.18551
    21.544      0.18493
    21.568      0.18435
    21.592      0.18378
    21.616      0.18321
    21.640      0.18264
    21.664      0.18207
    21.688      0.18150
    21.712      0.18093
    21.736      0.18037
    21.760      0.17980
    21.784      0.17924
    21.808      0.17868
    21.832      0.17812
    21.856      0.17756
    21.880      0.17700
    21.904      0.17644
    21.928      0.17589
    21.952      0.17533
    21.976      0.17478
    22.000      0.17423