Folder: pypi-mirror-371/packages/m-eclipses/m_eclipses-0.4.0.tar.gz/m_eclipses-0.4.0/euvst_response/data/throughput

Note: README.md
# PyPI code 371

This repository is part of a project to make all code in PyPI as accessible as possible. For more information 
on the project and to find out how to utilise this data, see the website: https://py-code.org/

This repo contains 28030 packages uploaded to PyPI between 
2025-08-21 11:20 and 2025-08-23 22:35.

The repo is 90% (25472/28030) complete.

Package contents can be found [in the code branch](https://github.com/pypi-data/pypi-mirror-371/tree/code/packages).

A browsable package list for all repositories [all packages here](https://py-code.org/repositories/pypi-mirror-371).

File: primary_mirror_coating_reflectance.dat
RSC-2022035A_EUVSTSensitivityBudget_20241213.pdf
 Wavelength (nm), Primary mirror costing reflectance
    17.000      0.09700
    17.200      0.10300
    17.400      0.09900
    17.600      0.10200
    17.800      0.10600
    18.000      0.10800
    18.200      0.11500
    18.400      0.12800
    18.600      0.13600
    18.800      0.13600
    19.000      0.13900
    19.200      0.14900
    19.400      0.16100
    19.600      0.17300
    19.800      0.17700
    20.000      0.17800
    20.200      0.18400
    20.400      0.18500
    20.600      0.18100
    20.800      0.17400
    21.000      0.15800
    21.200      0.13400
    21.400      0.10700

File: throughput_aluminium_1000_angstrom.dat
 Al Density=2.6989 Thickness=0.1 microns
 Wavelength (nm), Transmission
    16.000      0.12761
    16.024      0.12858
    16.048      0.12956
    16.072      0.13053
    16.096      0.13151
    16.120      0.13249
    16.144      0.13347
    16.168      0.13446
    16.192      0.13544
    16.216      0.13643
    16.240      0.13742
    16.264      0.13841
    16.288      0.13941
    16.312      0.14040
    16.336      0.14140
    16.360      0.14240
    16.384      0.14341
    16.408      0.14441
    16.432      0.14542
    16.456      0.14642
    16.480      0.14743
    16.504      0.14845
    16.528      0.14946
    16.552      0.15048
    16.576      0.15149
    16.600      0.15251
    16.624      0.15353
    16.648      0.15456
    16.672      0.15558
    16.696      0.15661
    16.720      0.15763
    16.744      0.15866
    16.768      0.15969
    16.792      0.16073
    16.816      0.16176
    16.840      0.16279
    16.864      0.16383
    16.888      0.16487
    16.912      0.16591
    16.936      0.16695
    16.960      0.16799
    16.984      0.16904
    17.008      0.17008
    17.032      0.19034
    17.056      0.61978
    17.080      0.85597
    17.104      0.85615
    17.128      0.85634
    17.152      0.85652
    17.176      0.85670
    17.200      0.85689
    17.224      0.85707
    17.248      0.85725
    17.272      0.85743
    17.296      0.85761
    17.320      0.85780
    17.344      0.85798
    17.368      0.85816
    17.392      0.85834
    17.416      0.85851
    17.440      0.85869
    17.464      0.85887
    17.488      0.85905
    17.512      0.85923
    17.536      0.85940
    17.560      0.85958
    17.584      0.85976
    17.608      0.85993
    17.632      0.86011
    17.656      0.86028
    17.680      0.86046
    17.704      0.86063
    17.728      0.86080
    17.752      0.86098
    17.776      0.86115
    17.800      0.86132
    17.824      0.86149
    17.848      0.86166
    17.872      0.86183
    17.896      0.86200
    17.920      0.86217
    17.944      0.86234
    17.968      0.86251
    17.992      0.86268
    18.016      0.86285
    18.040      0.86302
    18.064      0.86318
    18.088      0.86335
    18.112      0.86352
    18.136      0.86370
    18.160      0.86387
    18.184      0.86404
    18.208      0.86421
    18.232      0.86437
    18.256      0.86454
    18.280      0.86471
    18.304      0.86488
    18.328      0.86505
    18.352      0.86521
    18.376      0.86539
    18.400      0.86559
    18.424      0.86579
    18.448      0.86599
    18.472      0.86619
    18.496      0.86639
    18.520      0.86659
    18.544      0.86679
    18.568      0.86699
    18.592      0.86718
    18.616      0.86738
    18.640      0.86758
    18.664      0.86777
    18.688      0.86797
    18.712      0.86816
    18.736      0.86836
    18.760      0.86855
    18.784      0.86874
    18.808      0.86894
    18.832      0.86913
    18.856      0.86932
    18.880      0.86951
    18.904      0.86970
    18.928      0.86989
    18.952      0.87008
    18.976      0.87027
    19.000      0.87046
    19.024      0.87065
    19.048      0.87084
    19.072      0.87103
    19.096      0.87121
    19.120      0.87140
    19.144      0.87158
    19.168      0.87177
    19.192      0.87196
    19.216      0.87214
    19.240      0.87232
    19.264      0.87251
    19.288      0.87268
    19.312      0.87284
    19.336      0.87300
    19.360      0.87316
    19.384      0.87331
    19.408      0.87347
    19.432      0.87363
    19.456      0.87378
    19.480      0.87394
    19.504      0.87410
    19.528      0.87425
    19.552      0.87441
    19.576      0.87456
    19.600      0.87460
    19.624      0.87447
    19.648      0.87434
    19.672      0.87422
    19.696      0.87409
    19.720      0.87397
    19.744      0.87384
    19.768      0.87371
    19.792      0.87359
    19.816      0.87346
    19.840      0.87334
    19.864      0.87321
    19.888      0.87309
    19.912      0.87296
    19.936      0.87284
    19.960      0.87271
    19.984      0.87259
    20.008      0.87246
    20.032      0.87234
    20.056      0.87221
    20.080      0.87208
    20.104      0.87196
    20.128      0.87183
    20.152      0.87171
    20.176      0.87158
    20.200      0.87146
    20.224      0.87133
    20.248      0.87121
    20.272      0.87109
    20.296      0.87096
    20.320      0.87084
    20.344      0.87071
    20.368      0.87059
    20.392      0.87046
    20.416      0.87034
    20.440      0.87021
    20.464      0.87009
    20.488      0.86996
    20.512      0.86984
    20.536      0.86971
    20.560      0.86958
    20.584      0.86943
    20.608      0.86928
    20.632      0.86913
    20.656      0.86898
    20.680      0.86882
    20.704      0.86867
    20.728      0.86852
    20.752      0.86837
    20.776      0.86822
    20.800      0.86806
    20.824      0.86791
    20.848      0.86776
    20.872      0.86761
    20.896      0.86743
    20.920      0.86721
    20.944      0.86699
    20.968      0.86676
    20.992      0.86654
    21.016      0.86632
    21.040      0.86610
    21.064      0.86587
    21.088      0.86565
    21.112      0.86543
    21.136      0.86520
    21.160      0.86498
    21.184      0.86476
    21.208      0.86453
    21.232      0.86431
    21.256      0.86408
    21.280      0.86386
    21.304      0.86364
    21.328      0.86341
    21.352      0.86319
    21.376      0.86296
    21.400      0.86274
    21.424      0.86252
    21.448      0.86229
    21.472      0.86207
    21.496      0.86184
    21.520      0.86162
    21.544      0.86139
    21.568      0.86117
    21.592      0.86094
    21.616      0.86072
    21.640      0.86049
    21.664      0.86027
    21.688      0.86004
    21.712      0.85982
    21.736      0.85959
    21.760      0.85936
    21.784      0.85914
    21.808      0.85891
    21.832      0.85869
    21.856      0.85846
    21.880      0.85824
    21.904      0.85801
    21.928      0.85778
    21.952      0.85756
    21.976      0.85733
    22.000      0.85710